{
  "name": "Displays",
  "id": "CSD",
  "mainListOfContents": {
    "name": "List of Planned Analyses",
    "label": "LOPA",
    "contentsList": {
      "listItems": [
        {
          "name": "Summary of Demographics",
          "level": 1,
          "order": 1,
          "outputId": "Out14-1-1",
          "sublist": {
            "listItems": [
              {
                "name": "Summary of Subjects by Treatment",
                "level": 2,
                "order": 1,
                "analysisId": "An01_05_SAF_Summ_ByTrt"
              },
              {
                "name": "Age",
                "level": 2,
                "order": 2,
                "sublist": {
                  "listItems": [
                    {
                      "name": "Summary by Treatment",
                      "level": 3,
                      "order": 1,
                      "analysisId": "An03_01_Age_Summ_ByTrt"
                    },
                    {
                      "name": "Comparison by Treatment",
                      "level": 3,
                      "order": 2,
                      "analysisId": "An03_01_Age_Comp_ByTrt"
                    }
                  ]
                }
              },
              {
                "name": "Age Group",
                "level": 2,
                "order": 3,
                "sublist": {
                  "listItems": [
                    {
                      "name": "Summary of Subjects by Treatment",
                      "level": 3,
                      "order": 1,
                      "analysisId": "An03_02_AgeGrp_Summ_ByTrt"
                    },
                    {
                      "name": "Comparison of Subjects by Treatment",
                      "level": 3,
                      "order": 2,
                      "analysisId": "An03_02_AgeGrp_Comp_ByTrt"
                    }
                  ]
                }
              },
            ]
          }
        }
      ]
    }
  },
  "version": 1,
  "otherListsOfContents": [
    {
      "name": "List of Planned Outputs",
      "label": "LOPO",
      "contentsList": {
        "listItems": [
          {
            "name": "Summary of Demographics",
            "level": 1,
            "order": 1,
            "outputId": "Out14-1-1"
          }
        ]
      }
    }
  ],
  "referenceDocuments": [
    {
      "name": "Statistical Analysis Plan",
      "id": "CDISCPILOT01_SAP",
      "location": "./sap.pdf"
    },
    {
      "name": "Clinical Study Report",
      "id": "CDISCPILOT01_CSR",
      "location": "./csr-cdiscpilot01.pdf"
    },
    {
      "name": "at14-5-01.sas",
      "id": "at14-5-01_sas",
      "location": "./at14-5-01.sas"
    },
    {
      "name": "AE Summary Table Shell",
      "id": "AE_Summary_Table_Shell",
      "location": "./AE_Summary_Table_Shell.pdf"
    }
  ],
  "terminologyExtensions": [
    {
      "id": "TermEx1",
      "sponsorTerms": [
        {
          "id": "TermEx1_1",
          "submissionValue": "ADDITIONAL EXAMPLE",
          "description": "The analysis was included in the set as an additional example to demonstrate both a different type of analysis and sponsor terminology for analysis reason."
        }
      ],
      "enumeration": "AnalysisReasonEnum"
    }
  ],
  "analysisOutputCategorizations": [
    {
      "id": "Catn_01_Grp",
      "categories": [
        {
          "id": "Catn_01_Grp_1_Pop",
          "label": "Population Description"
        },
        {
          "id": "Catn_01_Grp_2_Saf",
          "label": "Safety"
        },
        {
          "id": "Catn_01_Grp_3_Eff",
          "label": "Efficacy"
        }
      ],
      "label": "Group of Analyses"
    },
    {
      "id": "Catn_02_DClass",
      "categories": [
        {
          "id": "Catn_02_Dclass_1_Sbj",
          "label": "Subject-level",
          "subCategorizations": [
            {
              "id": "Catn_03_SbjDType",
              "categories": [
                {
                  "id": "Catn_03_SbjDType_1_Dm",
                  "label": "Demographics"
                }
              ],
              "label": "Subject-level Data Type"
            }
          ]
        }
      ],
      "label": "Analysis Data Class"
    }
  ],
  "analysisSets": [
    {
      "name": "Intent-to-Treat Population",
      "label": "ITT",
      "id": "AnalysisSet_01_ITT",
      "level": 1,
      "order": 1,
      "condition": {
        "dataset": "ADSL",
        "variable": "ITTFL",
        "comparator": "EQ",
        "value": [
          "Y"
        ]
      }
    },
    {
      "name": "Safety Population",
      "label": "SAF",
      "id": "AnalysisSet_02_SAF",
      "level": 1,
      "order": 1,
      "condition": {
        "dataset": "ADSL",
        "variable": "SAFFL",
        "comparator": "EQ",
        "value": [
          "Y"
        ]
      }
    }
  ],
  "dataSubsets": [],
  "analysisGroupings": [
    {
      "name": "Treatment",
      "id": "AnlsGrouping_01_Trt",
      "dataDriven": false,
      "groupingDataset": "ADSL",
      "groupingVariable": "TRT01A",
      "groups": [
        {
          "name": "Placebo",
          "id": "AnlsGrouping_01_Trt_1",
          "level": 1,
          "order": 1,
          "condition": {
            "dataset": "ADSL",
            "variable": "TRT01A",
            "comparator": "EQ",
            "value": [
              "Placebo"
            ]
          }
        },
        {
          "name": "Xanomeline Low Dose",
          "id": "AnlsGrouping_01_Trt_2",
          "level": 1,
          "order": 2,
          "condition": {
            "dataset": "ADSL",
            "variable": "TRT01A",
            "comparator": "EQ",
            "value": [
              "Xanomeline Low Dose"
            ]
          }
        },
        {
          "name": "Xanomeline High Dose",
          "id": "AnlsGrouping_01_Trt_3",
          "level": 1,
          "order": 3,
          "condition": {
            "dataset": "ADSL",
            "variable": "TRT01A",
            "comparator": "EQ",
            "value": [
              "Xanomeline High Dose"
            ]
          }
        }
      ]
    }
  ],
  "methods": [
    {
      "name": "Count by group for a categorical variable",
      "description": "Count across groups for a categorical variable, based on subject occurrence",
      "label": "Grouped count for categorical variable",
      "id": "Mth01_CatVar_Count_ByGrp",
      "operations": [
        {
          "name": "Count of subjects",
          "label": "n",
          "id": "Mth01_CatVar_Count_ByGrp_1_n",
          "order": 1,
          "resultPattern": "(N=XX)"
        }
      ]
    },
    {
      "name": "Summary by group of a categorical variable",
      "description": "Descriptive summary statistics across groups for a categorical variable, based on subject occurrence",
      "label": "Grouped summary of categorical variable",
      "id": "Mth01_CatVar_Summ_ByGrp",
      "operations": [
        {
          "name": "Count of subjects",
          "label": "n",
          "id": "Mth01_CatVar_Summ_ByGrp_1_n",
          "order": 1,
          "resultPattern": "XXX"
        },
        {
          "name": "Percent of subjects",
          "label": "%",
          "id": "Mth01_CatVar_Summ_ByGrp_2_pct",
          "order": 2,
          "referencedOperationRelationships": [
            {
              "id": "Mth01_CatVar_Summ_ByGrp_2_pct_NUM",
              "referencedOperationRole": {
                "controlledTerm": "NUMERATOR"
              },
              "operationId": "Mth01_CatVar_Summ_ByGrp_1_n",
              "description": "The count operation whose result provides the numerator for calculation of the percentage. The referenced analysis should be the analysis that contains this percent operation."
            },
            {
              "id": "Mth01_CatVar_Summ_ByGrp_2_pct_DEN",
              "referencedOperationRole": {
                "controlledTerm": "DENOMINATOR"
              },
              "operationId": "Mth01_CatVar_Count_ByGrp_1_n",
              "description": "The count operation whose result provides the denominator for calculation of the percentage. The referenced analysis should have the same analysis set and subject grouping(s) as the analysis containing this percent operation."
            }
          ],
          "resultPattern": "( XX.X)"
        }
      ],
      "documentRefs": [
        {
          "referenceDocumentId": "CDISCPILOT01_SAP",
          "pageRefs": [
            {
              "refType": "PhysicalRef",
              "label": "7. GENERAL CONSIDERATIONS FOR DATA ANALYSES",
              "pageNumbers": [
                9
              ]
            }
          ]
        }
      ]
    },
    {
      "name": "Summary by group of a continuous variable",
      "description": "Descriptive summary statistics across groups for a continuous variable",
      "label": "Grouped summary of continuous variable",
      "id": "Mth02_ContVar_Summ_ByGrp",
      "operations": [
        {
          "name": "Count of non-missing values",
          "label": "n",
          "id": "Mth02_ContVar_Summ_ByGrp_1_n",
          "order": 1,
          "resultPattern": "XX"
        },
        {
          "name": "Mean",
          "label": "Mean",
          "id": "Mth02_ContVar_Summ_ByGrp_2_Mean",
          "order": 2,
          "resultPattern": "XX.X"
        },
        {
          "name": "Standard deviation",
          "label": "SD",
          "id": "Mth02_ContVar_Summ_ByGrp_3_SD",
          "order": 3,
          "resultPattern": "(XX.XX)"
        },
        {
          "name": "Median",
          "label": "Median",
          "id": "Mth02_ContVar_Summ_ByGrp_4_Median",
          "order": 4,
          "resultPattern": "XX.X"
        },
        {
          "name": "First quartile",
          "label": "Q1",
          "id": "Mth02_ContVar_Summ_ByGrp_5_Q1",
          "order": 5,
          "resultPattern": "XX.X"
        },
        {
          "name": "Third quartile",
          "label": "Q3",
          "id": "Mth02_ContVar_Summ_ByGrp_6_Q3",
          "order": 6,
          "resultPattern": "XX.X"
        },
        {
          "name": "Minimum",
          "label": "Min",
          "id": "Mth02_ContVar_Summ_ByGrp_7_Min",
          "order": 7,
          "resultPattern": "XX"
        },
        {
          "name": "Maximum",
          "label": "Max",
          "id": "Mth02_ContVar_Summ_ByGrp_8_Max",
          "order": 8,
          "resultPattern": "XX"
        }
      ],
      "documentRefs": [
        {
          "referenceDocumentId": "CDISCPILOT01_SAP",
          "pageRefs": [
            {
              "refType": "PhysicalRef",
              "label": "7. GENERAL CONSIDERATIONS FOR DATA ANALYSES",
              "pageNumbers": [
                9
              ]
            }
          ]
        }
      ]
    },
    {
      "name": "Pearson's chi-square test group comparison for a categorical variable",
      "description": "Comparison of groups by Pearson's chi-square test for a categorical variable",
      "label": "Pearson's chi-square test group comparison for categorical variable",
      "id": "Mth03_CatVar_Comp_PChiSq",
      "operations": [
        {
          "name": "P-value",
          "label": "p-value",
          "id": "Mth03_CatVar_Comp_PChiSq_1_pval",
          "order": 1,
          "resultPattern": "X.XXXX"
        }
      ],
      "codeTemplate": {
        "context": "SAS Version 9.4",
        "code": "proc freq data={dataset};\ntable {grp1var}*{grp2var}/chisq;\nexact pchi; \nods output PearsonChiSq=results.PCHI{outdssfx};\nrun;",
        "parameters": [
          {
            "name": "dataset",
            "description": "Input dataset",
            "valueSource": "dataset"
          },
          {
            "name": "grp1var",
            "description": "First grouping variable",
            "valueSource": "orderedGroupings[1].groupingVariable"
          },
          {
            "name": "grp2var",
            "description": "Second grouping variable",
            "valueSource": "orderedGroupings[2].groupingVariable"
          },
          {
            "name": "outdssfx",
            "description": "Output dataset suffix",
            "valueSource": "orderedGroupings[2].groupingVariable"
          }
        ]
      }
    },
    {
      "name": "Analysis of variance group comparison for a continuous variable",
      "description": "Comparison of groups by analysis of variance (ANOVA) for a continuous variable",
      "label": "ANOVA group comparison for continuous variable",
      "id": "Mth04_ContVar_Comp_Anova",
      "operations": [
        {
          "name": "P-value",
          "label": "p-value",
          "id": "Mth04_ContVar_Comp_Anova_1_pval",
          "order": 1,
          "resultPattern": "X.XXXX"
        }
      ],
      "codeTemplate": {
        "context": "SAS Version 9.4",
        "code": "proc glm data={dataset};\nclass {grp1var};\nmodel {grp2var}={gpr1var};\nods output OverallANOVA=results.ANOV{outdssfx} (where=(source = 'Model'));\nrun;",
        "parameters": [
          {
            "name": "dataset",
            "description": "Input dataset",
            "valueSource": "dataset"
          },
          {
            "name": "grp1var",
            "description": "First grouping variable",
            "valueSource": "orderedGroupings[1].groupingVariable"
          },
          {
            "name": "grp2var",
            "description": "Second grouping variable",
            "valueSource": "variable"
          },
          {
            "name": "outdssfx",
            "description": "Output dataset suffix",
            "valueSource": "variable"
          }
        ]
      }
    },
    {
      "name": "Fisher's exact test group comparison for a categorical variable",
      "description": "Comparison of groups by Fisher's exact test for a categorical variable",
      "label": "Fisher's exact test group comparison for categorical variable",
      "id": "Mth05_CatVar_Comp_FishEx",
      "operations": [
        {
          "name": "P-value",
          "label": "p-value",
          "id": "Mth03_CatVar_Comp_FishEx_1_pval",
          "order": 1,
          "resultPattern": "X.XXXX"
        }
      ]
    }
  ],
  "analyses": [
    {
      "name": "Summary of Subjects by Treatment",
      "id": "An01_05_SAF_Summ_ByTrt",
      "reason": {
        "controlledTerm": "SPECIFIED IN SAP"
      },
      "purpose": {
        "controlledTerm": "PRIMARY OUTCOME MEASURE"
      },
      "methodId": "Mth01_CatVar_Count_ByGrp",
      "version": 1,
      "documentRefs": [
        {
          "referenceDocumentId": "CDISCPILOT01_SAP",
          "pageRefs": [
            {
              "refType": "PhysicalRef",
              "label": "6. ANALYSIS POPULATIONS",
              "pageNumbers": [
                9
              ]
            }
          ]
        }
      ],
      "categoryIds": [
        "Catn_01_Grp_1_Pop",
        "Catn_02_Dclass_1_Sbj",
        "Catn_03_SbjDType_1_Dm"
      ],
      "dataset": "ADSL",
      "variable": "USUBJID",
      "analysisSetId": "AnalysisSet_02_SAF",
      "orderedGroupings": [
        {
          "order": 1,
          "groupingId": "AnlsGrouping_01_Trt",
          "resultsByGroup": true
        }
      ],
      "results": [
        {
          "operationId": "Mth01_CatVar_Count_ByGrp_1_n",
          "resultGroups": [
            {
              "groupingId": "AnlsGrouping_01_Trt",
              "groupId": "AnlsGrouping_01_Trt_1"
            }
          ],
          "rawValue": "86",
          "formattedValue": "(N=86)"
        },
        {
          "operationId": "Mth01_CatVar_Count_ByGrp_1_n",
          "resultGroups": [
            {
              "groupingId": "AnlsGrouping_01_Trt",
              "groupId": "AnlsGrouping_01_Trt_2"
            }
          ],
          "rawValue": "84",
          "formattedValue": "(N=84)"
        },
        {
          "operationId": "Mth01_CatVar_Count_ByGrp_1_n",
          "resultGroups": [
            {
              "groupingId": "AnlsGrouping_01_Trt",
              "groupId": "AnlsGrouping_01_Trt_3"
            }
          ],
          "rawValue": "84",
          "formattedValue": "(N=84)"
        }
      ]
    }
  ],
  "globalDisplaySections": [
    {
      "sectionType": "Header",
      "subSections": [
        {
          "id": "GlobalDisp_Header_1",
          "text": "Study - CDISC 360"
        },
        {
          "id": "GlobalDisp_Header_2",
          "text": "Page x of y"
        }
      ]
    },
    {
      "sectionType": "Title",
      "subSections": [
        {
          "id": "GlobalDisp_Title_1",
          "text": "Safety Population"
        }
      ]
    },
    {
      "sectionType": "Footer",
      "subSections": [
        {
          "id": "GlobalDisp_Footer_1",
          "text": "Program: <pid>.sas, Output: <pid><oid>.rtf, Generated on: DDMONYYYY:HH:MM"
        }
      ]
    }
  ],
  "outputs": [
    {
      "name": "Summary of Demographics",
      "id": "Out14-1-1",
      "displays": [
        {
          "order": 1,
          "display": {
            "name": "Demographics",
            "label": "Demog",
            "id": "Disp14-1-1",
            "version": 1,
            "displayTitle": "Summary of Demographics",
            "displaySections": [
              {
                "sectionType": "Header",
                "orderedSubSections": [
                  {
                    "order": 1,
                    "subSectionId": "GlobalDisp_Header_1"
                  },
                  {
                    "order": 2,
                    "subSectionId": "GlobalDisp_Header_2"
                  }
                ]
              },
              {
                "sectionType": "Title",
                "orderedSubSections": [
                  {
                    "order": 1,
                    "subSection": {
                      "id": "Disp14-1-1_Title_1",
                      "text": "Table 14.1.1"
                    }
                  },
                  {
                    "order": 2,
                    "subSection": {
                      "id": "Disp14-1-1_Title_2",
                      "text": "Summary of Demographics"
                    }
                  },
                  {
                    "order": 3,
                    "subSectionId": "GlobalDisp_Title_1"
                  }
                ]
              },
              {
                "sectionType": "Footer",
                "orderedSubSections": [
                  {
                    "order": 1,
                    "subSection": {
                      "id": "Disp14-1-1_Footer_1",
                      "text": "Source dataset: adsl, Generated on: DDMONYYYY:HH:MM"
                    }
                  },
                  {
                    "order": 2,
                    "subSectionId": "GlobalDisp_Footer_1"
                  }
                ]
              },
              {
                "sectionType": "Rowlabel Header",
                "orderedSubSections": [
                  {
                    "order": 1,
                    "subSection": {
                      "id": "Disp14-1-1_RLbHd_1",
                      "text": "Characteristics"
                    }
                  }
                ]
              }
            ]
          }
        }
      ],
      "version": 1,
      "fileSpecifications": [
        {
          "name": "t14-1-1-demog (RTF)",
          "label": "t14-1-1-demog",
          "fileType": {
            "controlledTerm": "rtf"
          },
          "location": "./t14-1-1-demog.rtf"
        },
        {
          "name": "t14-1-1-demog (PDF)",
          "label": "t14-1-1-demog",
          "fileType": {
            "controlledTerm": "pdf"
          },
          "location": "./t14-1-1-demog.pdf"
        }
      ],
      "categoryIds": [
        "Catn_01_Grp_1_Pop",
        "Catn_03_SbjDType_1_Dm"
      ],
      "documentRefs": [
        {
          "referenceDocumentId": "CDISCPILOT01_CSR",
          "pageRefs": [
            {
              "refType": "PhysicalRef",
              "label": "Table 14-2.01",
              "firstPage": 46,
              "lastPage": 48
            }
          ]
        }
      ]
    }
  ],
  "@type": "ReportingEvent"
}
